Freq(Hz),measure
5,6.45
6,7.61
7,8.96
8,10
9,11
10,12
15,14
20,19
25,23.5
30,28
40,38.5
50,47.5
70,66.5
90,87.5
110,107
130,123
150,147
170,163
190,186
210,204
230,222
250,238
300,200